the approximate value of the resistance
856
984,5416,0
984,5428,0
986,5443,0
992,5472,0
996,5484,0
997,5508,0
996,5540,0
984,5568,0
977,5607,0
968,5647,0
964,5687,1
984,5580,0
994,5580,0
1006,5583,0
1020,5588,0
1036,5581,1
1097,5417,0
1099,5405,0
1098,5397,0
1097,5396,0
1095,5405,0
1093,5424,0
1093,5456,0
1094,5496,0
1089,5525,0
1078,5568,0
1047,5716,0
1044,5732,0
1057,5708,0
1070,5692,0
1076,5656,0
1085,5632,0
1096,5597,0
1110,5569,0
1124,5548,0
1138,5540,0
1148,5544,0
1155,5556,0
1161,5580,0
1164,5608,0
1164,5628,0
1165,5660,0
1166,5675,0
1175,5699,0
1183,5711,0
1196,5718,0
1208,5719,0
1223,5715,0
1236,5701,0
1247,5686,0
1253,5649,0
1257,5614,0
1261,5598,0
1260,5586,0
1257,5578,0
1251,5582,0
1242,5586,0
1234,5606,0
1228,5639,0
1220,5663,0
1218,5691,0
1220,5718,0
1228,5734,0
1242,5746,0
1264,5757,0
1288,5756,0
1310,5751,0
1331,5726,1
1558,5539,0
1542,5544,0
1529,5553,0
1520,5574,0
1510,5591,0
1503,5620,0
1500,5648,0
1503,5672,0
1509,5687,0
1517,5699,0
1528,5698,0
1540,5697,0
1549,5680,0
1563,5667,0
1574,5642,0
1586,5617,0
1592,5580,0
1599,5555,0
1601,5547,0
1597,5544,0
1597,5547,0
1592,5560,0
1586,5581,0
1584,5617,0
1582,5641,0
1587,5665,0
1589,5681,0
1593,5692,0
1602,5699,0
1609,5694,0
1617,5687,0
1628,5669,0
1640,5643,0
1655,5622,0
1664,5588,0
1669,5572,0
1673,5564,0
1670,5560,0
1667,5560,0
1664,5569,0
1656,5590,0
1649,5618,0
1648,5651,0
1641,5680,0
1637,5716,0
1633,5757,0
1630,5797,0
1629,5830,0
1626,5841,0
1626,5850,0
1628,5850,0
1628,5834,0
1626,5818,1
1645,5623,0
1665,5600,0
1679,5575,0
1693,5565,0
1707,5560,0
1719,5571,0
1722,5582,0
1723,5606,0
1718,5631,0
1710,5660,0
1696,5686,0
1678,5708,0
1660,5726,0
1645,5732,0
1631,5729,0
1626,5722,1
1757,5562,0
1754,5578,0
1756,5595,0
1754,5607,0
1752,5627,0
1753,5651,0
1753,5675,0
1751,5700,0
1747,5721,0
1744,5745,0
1737,5762,0
1732,5779,0
1729,5791,1
1751,5547,0
1763,5541,0
1775,5531,0
1795,5525,0
1818,5530,0
1837,5535,0
1852,5549,0
1860,5564,0
1855,5589,0
1843,5615,0
1823,5646,0
1795,5674,0
1769,5701,0
1741,5713,0
1718,5724,0
1703,5721,0
1696,5714,1
1905,5553,0
1901,5562,0
1903,5578,0
1905,5598,0
1905,5622,0
1905,5646,0
1903,5675,0
1896,5697,0
1894,5721,0
1894,5729,0
1894,5733,0
1892,5730,0
1892,5717,0
1889,5693,0
1894,5665,0
1899,5636,0
1908,5605,0
1921,5579,0
1939,5556,0
1961,5537,0
1979,5521,0
1995,5518,0
2009,5528,0
2018,5539,0
2031,5549,1
2111,5563,0
2106,5552,0
2100,5540,0
2091,5534,0
2082,5536,0
2067,5538,0
2053,5557,0
2037,5581,0
2024,5615,0
2015,5669,0
2022,5680,0
2035,5690,0
2053,5687,0
2072,5675,0
2091,5660,0
2118,5618,0
2123,5593,0
2121,5560,0
2125,5548,1
2291,5533,0
2283,5531,0
2282,5531,0
2269,5538,0
2252,5566,0
2229,5588,0
2204,5617,0
2177,5647,0
2154,5664,0
2137,5676,0
2131,5652,1
2177,5513,0
2178,5517,0
2177,5530,0
2178,5553,0
2178,5578,0
2193,5624,0
2207,5634,0
2226,5638,0
2252,5636,0
2271,5624,0
2290,5612,0
2304,5588,0
2315,5564,0
2323,5542,0
2326,5525,0
2328,5525,0
2327,5525,0
2324,5534,0
2318,5556,0
2311,5582,0
2306,5612,0
2299,5643,0
2294,5660,1
2338,5407,0
2335,5408,0
2334,5404,0
2335,5408,0
2340,5414,1
2388,5540,0
2387,5547,0
2387,5560,0
2384,5586,0
2382,5610,0
2377,5636,0
2374,5662,0
2370,5679,0
2370,5692,0
2371,5695,0
2374,5694,0
2379,5677,0
2385,5647,0
2400,5623,0
2408,5592,0
2426,5562,0
2438,5547,0
2454,5535,0
2464,5532,0
2474,5542,0
2477,5558,0
2481,5586,0
2476,5608,0
2475,5641,0
2466,5656,0
2461,5670,0
2458,5675,0
2458,5675,0
2460,5657,0
2470,5634,0
2486,5610,0
2501,5585,0
2521,5559,0
2538,5547,0
2550,5535,0
2555,5533,0
2557,5541,0
2557,5557,0
2553,5583,0
2550,5610,0
2543,5631,1
2663,5552,0
2659,5545,0
2655,5542,0
2649,5536,0
2639,5534,0
2629,5533,0
2618,5549,0
2602,5566,0
2594,5589,0
2591,5611,0
2593,5626,0
2601,5641,0
2614,5650,0
2626,5642,0
2642,5638,0
2658,5633,0
2666,5614,0
2673,5595,0
2679,5576,0
2680,5568,0
2678,5564,0
2675,5566,0
2675,5578,0
2673,5595,0
2671,5617,0
2670,5638,0
2671,5658,0
2681,5680,0
2694,5684,0
2707,5677,0
2723,5660,0
2741,5634,0
2754,5596,0
2767,5554,0
2777,5509,0
2786,5468,0
2795,5441,0
2799,5414,0
2801,5396,0
2803,5388,0
2801,5388,0
2803,5396,0
2797,5414,0
2792,5445,0
2788,5480,0
2784,5516,0
2780,5550,0
2782,5587,0
2783,5617,0
2784,5636,0
2784,5645,0
2789,5643,1
2762,5501,0
2765,5509,0
2773,5519,0
2788,5527,0
2815,5531,0
2839,5535,0
2866,5535,0
2894,5525,0
2918,5513,0
2937,5502,0
2944,5491,0
2941,5484,0
2930,5484,0
2908,5487,0
2885,5499,0
2862,5523,0
2846,5549,0
2844,5571,0
2852,5594,0
2873,5613,0
2899,5625,0
2929,5631,0
2960,5629,0
2989,5624,0
3013,5611,1
3199,5486,0
3194,5501,0
3190,5523,0
3190,5553,0
3192,5578,0
3199,5602,0
3213,5622,0
3231,5641,0
3250,5646,0
3276,5652,0
3301,5647,0
3327,5637,0
3344,5612,0
3361,5583,0
3369,5549,0
3375,5525,0
3366,5490,1
3507,5506,0
3499,5501,0
3492,5504,0
3477,5507,0
3457,5520,0
3437,5542,0
3421,5571,0
3408,5598,0
3405,5625,0
3408,5646,0
3417,5664,0
3433,5675,0
3452,5670,0
3474,5661,0
3492,5640,0
3510,5619,0
3518,5589,0
3526,5559,0
3530,5545,0
3527,5532,0
3526,5528,0
3524,5529,0
3520,5540,0
3513,5565,0
3507,5594,0
3510,5627,0
3514,5652,0
3524,5675,0
3534,5683,0
3548,5686,0
3569,5676,0
3590,5658,0
3615,5633,0
3633,5594,0
3652,5554,0
3665,5511,0
3674,5477,0
3680,5446,0
3682,5423,0
3679,5407,0
3678,5403,0
3667,5395,0
3662,5415,0
3649,5443,0
3638,5480,0
3627,5516,0
3618,5557,0
3609,5591,0
3611,5626,0
3617,5649,0
3631,5665,0
3651,5669,0
3672,5664,0
3696,5652,0
3719,5632,0
3737,5605,0
3752,5581,0
3763,5553,0
3771,5535,0
3775,5524,0
3773,5521,0
3773,5521,0
3769,5532,0
3761,5558,0
3752,5593,0
3749,5622,0
3748,5654,0
3749,5676,0
3758,5694,0
3769,5706,0
3784,5707,0
3805,5697,0
3829,5681,0
3848,5653,0
3865,5622,0
3877,5598,0
3880,5578,0
3878,5566,0
3875,5559,0
3875,5563,0
3870,5566,0
3860,5584,0
3855,5610,0
3851,5634,0
3852,5656,0
3858,5684,0
3867,5697,0
3883,5707,0
3901,5707,0
3925,5699,0
3946,5684,0
3972,5666,0
4001,5637,0
4020,5605,0
4033,5574,0
4041,5556,0
4041,5542,0
4036,5532,0
4024,5529,0
4012,5536,0
3996,5553,0
3978,5576,0
3964,5602,0
3962,5626,0
3968,5655,0
3986,5672,0
4007,5679,0
4039,5684,0
4068,5678,1
4391,5584,0
4394,5568,0
4400,5555,0
4401,5545,0
4394,5535,0
4389,5534,0
4374,5534,0
4357,5544,0
4328,5552,0
4307,5574,0
4289,5594,0
4280,5613,0
4287,5636,0
4296,5646,0
4314,5654,0
4335,5660,0
4354,5653,0
4369,5639,0
4385,5625,0
4396,5600,0
4402,5573,0
4406,5552,0
4402,5530,0
4394,5517,0
4379,5506,1
4480,5444,0
4476,5436,0
4475,5432,0
4479,5439,0
4474,5443,0
4466,5458,0
4462,5483,0
4454,5508,0
4448,5535,0
4443,5571,0
4437,5603,0
4432,5639,0
4425,5672,0
4423,5700,0
4421,5725,0
4420,5744,0
4422,5757,1
4395,5615,0
4401,5607,0
4413,5595,0
4437,5584,0
4461,5565,1
4657,5658,0
4660,5656,0
4661,5646,0
4669,5635,0
4677,5616,0
4690,5593,0
4705,5564,0
4728,5534,0
4746,5502,0
4760,5472,0
4772,5450,0
4781,5438,0
4782,5428,0
4782,5428,0
4784,5431,0
4784,5437,0
4783,5456,0
4784,5481,0
4778,5503,0
4775,5535,0
4775,5569,0
4775,5608,0
4771,5639,0
4767,5666,0
4765,5692,1
4734,5601,0
4750,5605,0
4765,5600,0
4782,5588,0
4799,5572,1
4864,5419,0
4864,5413,0
4864,5413,0
4860,5421,0
4856,5440,0
4850,5472,0
4850,5508,0
4844,5541,0
4839,5574,0
4833,5607,0
4832,5636,0
4830,5653,0
4831,5661,0
4837,5663,0
4842,5654,0
4852,5637,0
4862,5612,0
4876,5592,0
4888,5573,0
4898,5561,0
4904,5553,0
4912,5557,0
4912,5562,0
4915,5584,0
4912,5605,0
4917,5632,0
4919,5650,0
4924,5666,0
4937,5675,0
4954,5674,0
4975,5665,0
4997,5648,0
5015,5620,0
5038,5598,0
5049,5571,0
5052,5549,0
5046,5538,0
5043,5536,0
5032,5534,0
5017,5545,0
5009,5571,0
4993,5597,0
4989,5625,0
4986,5646,0
4995,5664,0
5011,5672,0
5036,5674,0
5064,5665,1
5313,5480,0
5313,5485,0
5313,5495,0
5313,5516,0
5311,5537,0
5303,5564,0
5298,5593,0
5291,5619,0
5284,5645,1
5272,5498,0
5279,5507,0
5287,5516,0
5302,5530,0
5322,5540,0
5337,5547,0
5358,5552,0
5382,5547,0
5405,5540,0
5424,5529,0
5446,5516,0
5465,5506,0
5474,5494,0
5479,5484,0
5476,5476,0
5469,5472,0
5460,5474,0
5446,5487,0
5419,5498,0
5395,5521,0
5380,5554,0
5359,5576,0
5361,5611,0
5364,5633,0
5378,5648,0
5400,5660,0
5431,5663,0
5452,5656,0
5478,5651,1
5577,5491,0
5568,5483,0
5558,5476,0
5547,5474,0
5537,5473,0
5528,5475,0
5528,5485,0
5533,5496,0
5543,5509,0
5557,5524,0
5563,5539,0
5567,5557,0
5565,5579,0
5554,5598,0
5538,5617,0
5520,5636,0
5501,5652,0
5486,5664,0
5467,5665,0
5454,5659,0
5446,5645,0
5443,5627,0
5448,5607,0
5460,5588,0
5472,5562,1
5618,5525,0
5614,5528,0
5613,5534,0
5619,5549,0
5617,5566,0
5618,5587,0
5613,5612,0
5606,5633,0
5603,5657,1
5623,5431,0
5616,5421,0
5615,5416,0
5610,5410,0
5611,5414,1
5769,5527,0
5762,5528,0
5752,5525,0
5747,5525,0
5742,5524,0
5740,5530,0
5742,5539,0
5749,5549,0
5755,5560,0
5768,5570,0
5783,5583,0
5800,5594,0
5812,5610,0
5817,5628,0
5813,5646,0
5803,5666,0
5786,5680,0
5771,5694,0
5751,5700,0
5730,5702,0
5711,5698,0
5689,5684,0
5682,5675,0
5670,5658,0
5667,5640,1
5891,5412,0
5892,5416,0
5892,5428,0
5895,5451,0
5897,5477,0
5899,5507,0
5896,5537,0
5891,5569,0
5882,5597,1
5781,5532,0
5795,5525,0
5815,5513,0
5850,5508,0
5887,5502,0
5927,5499,0
5961,5494,0
5992,5493,0
6017,5491,0
6041,5491,0
6055,5489,0
6061,5489,0
6062,5488,0
6057,5487,0
6049,5484,0
6040,5486,0
6030,5490,0
6015,5498,0
5999,5508,0
5979,5521,0
5959,5533,0
5943,5554,0
5932,5574,0
5923,5598,0
5922,5615,0
5930,5630,0
5945,5638,0
5961,5640,0
5980,5639,0
5997,5629,0
6016,5617,0
6035,5600,0
6054,5576,0
6068,5552,0
6077,5528,0
6080,5509,0
6079,5499,0
6078,5494,0
6076,5496,0
6073,5506,0
6068,5526,0
6065,5550,0
6067,5576,0
6067,5603,0
6070,5627,0
6075,5644,0
6086,5656,0
6093,5655,0
6110,5651,0
6125,5637,0
6140,5618,0
6148,5588,0
6156,5564,0
6163,5541,0
6159,5523,0
6166,5516,0
6162,5508,0
6164,5506,0
6164,5512,0
6158,5529,0
6145,5547,0
6133,5569,0
6126,5598,0
6112,5617,0
6108,5636,0
6107,5643,0
6109,5646,0
6113,5642,0
6119,5626,0
6133,5607,0
6150,5587,0
6164,5561,0
6183,5538,0
6201,5516,0
6221,5501,0
6237,5493,0
6251,5490,0
6258,5494,0
6261,5502,0
6264,5522,0
6264,5543,0
6259,5565,0
6256,5591,0
6248,5614,0
6247,5639,0
6250,5662,0
6256,5678,0
6268,5689,0
6279,5689,1
6397,5498,0
6389,5494,0
6384,5494,0
6379,5499,0
6365,5508,0
6351,5525,0
6334,5548,0
6312,5570,0
6301,5597,0
6298,5622,0
6299,5644,0
6310,5660,0
6325,5669,0
6348,5675,0
6379,5677,0
6411,5675,0
6447,5662,0
6473,5646,0
6505,5633,0
6530,5614,0
6550,5588,0
6563,5568,0
6572,5554,0
6571,5543,0
6563,5535,0
6549,5537,0
6528,5542,0
6507,5558,0
6486,5579,0
6468,5602,0
6451,5629,0
6449,5659,0
6464,5690,0
6488,5711,0
6523,5721,0
6571,5725,0
6623,5719,1